{
  "resourceType": "Bundle",
  "id": "9ff4431c-3937-4d61-8e18-49dbd67205c4",
  "meta": {
    "lastUpdated": "2017-08-08T11:14:25.810-04:00"
  },
  "type": "searchset",
  "total": 4,
  "link": [
    {
      "relation": "self",
      "url": "http://fhirtest.uhn.ca/baseDstu3/CarePlan?_include=CarePlan%3Aactivity-reference&_include=CarePlan%3Asubject&_pretty=true&subject=cf-1502030067739"
    }
  ],
  "entry": [
    {
      "fullUrl": "http://fhirtest.uhn.ca/baseDstu3/CarePlan/cf-1502030215339",
      "resource": {
        "resourceType": "CarePlan",
        "id": "cf-1502030215339",
        "meta": {
          "versionId": "1",
          "lastUpdated": "2017-08-07T19:31:19.094-04:00"
        },
        "text": {
          "status": "generated",
          "div": "<div xmlns=\"http://www.w3.org/1999/xhtml\"><p>Lifestyle changes (Heart failure)</p></div>"
        },
        "status": "active",
        "intent": "plan",
        "category": [
          {
            "coding": [
              {
                "system": "http://snomed.info/sct",
                "code": "698361000",
                "display": "Heart failure self management plan"
              }
            ],
            "text": "Heart failure self management plan"
          }
        ],
        "description": "Lifestyle changes",
        "subject": {
          "reference": "Patient/cf-1502030067739"
        },
        "period": {
          "start": "2016-10-12",
          "end": "2017-10-12"
        },
        "author": [
          {
            "reference": "Practitioner/cf-1502030117433"
          }
        ],
        "activity": [
          {
            "reference": {
              "reference": "DeviceRequest/cf-1502030320719"
            }
          },
          {
            "reference": {
              "reference": "DeviceRequest/cf-1502030355096"
            }
          },
          {
            "reference": {
              "reference": "DeviceRequest/cf-1502030848471"
            }
          },
          {
            "reference": {
              "reference": "NutritionOrder/cf-1502030475807"
            }
          },
          {
            "reference": {
              "reference": "Task/cf-1502030040059"
            }
          },
          {
            "reference": {
              "reference": "ProcedureRequest/cf-1502030273656"
            }
          },
          {
            "reference": {
              "reference": "ProcedureRequest/cf-1502032692537"
            }
          },
          {
            "reference": {
              "reference": "ProcedureRequest/cf-1502032753214"
            }
          },
          {
            "reference": {
              "reference": "ProcedureRequest/cf-1502032785216"
            }
          }
        ]
      },
      "search": {
        "mode": "match"
      }
    },
    {
      "fullUrl": "http://fhirtest.uhn.ca/baseDstu3/CarePlan/cf-1502030236934",
      "resource": {
        "resourceType": "CarePlan",
        "id": "cf-1502030236934",
        "meta": {
          "versionId": "1",
          "lastUpdated": "2017-08-07T19:31:19.094-04:00"
        },
        "text": {
          "status": "generated",
          "div": "<div xmlns=\"http://www.w3.org/1999/xhtml\"><p>Clinical treatment for heart insufficiency</p></div>"
        },
        "status": "active",
        "intent": "order",
        "category": [
          {
            "coding": [
              {
                "system": "http://snomed.info/sct",
                "code": "412774003",
                "display": "Clinical management plan"
              }
            ],
            "text": "Clinical management plan"
          }
        ],
        "description": "Clinical treatment for heart insufficiency",
        "subject": {
          "reference": "Patient/cf-1502030067739"
        },
        "period": {
          "start": "2014-03-12"
        },
        "author": [
          {
            "reference": "Practitioner/cf-1502030117433"
          }
        ],
        "activity": [
          {
            "reference": {
              "reference": "MedicationRequest/cf-1502031074742"
            }
          },
          {
            "reference": {
              "reference": "MedicationRequest/cf-1502031096691"
            }
          },
          {
            "reference": {
              "reference": "MedicationRequest/cf-1502031146974"
            }
          },
          {
            "reference": {
              "reference": "MedicationRequest/cf-1502031196772"
            }
          },
          {
            "reference": {
              "reference": "MedicationRequest/cf-1502031310206"
            }
          },
          {
            "reference": {
              "reference": "MedicationRequest/cf-1502031358974"
            }
          },
          {
            "reference": {
              "reference": "MedicationRequest/cf-1502031409350"
            }
          },
          {
            "reference": {
              "reference": "ProcedureRequest/cf-1502032316969"
            }
          },
          {
            "reference": {
              "reference": "ProcedureRequest/cf-1502032333283"
            }
          },
          {
            "reference": {
              "reference": "ProcedureRequest/cf-1502032464157"
            }
          },
          {
            "reference": {
              "reference": "ProcedureRequest/cf-1502032534419"
            }
          },
          {
            "reference": {
              "reference": "ProcedureRequest/cf-1502032632253"
            }
          }
        ]
      },
      "search": {
        "mode": "match"
      }
    },
    {
      "fullUrl": "http://fhirtest.uhn.ca/baseDstu3/CarePlan/cf-1502030192555",
      "resource": {
        "resourceType": "CarePlan",
        "id": "cf-1502030192555",
        "meta": {
          "versionId": "1",
          "lastUpdated": "2017-08-07T19:31:19.094-04:00"
        },
        "text": {
          "status": "generated",
          "div": "<div xmlns=\"http://www.w3.org/1999/xhtml\"><p>Basic Diabetes Mellitus Type 2 Therapy</p></div>"
        },
        "status": "active",
        "intent": "order",
        "category": [
          {
            "coding": [
              {
                "system": "http://snomed.info/sct",
                "code": "412777005",
                "display": "Diabetes clinical management plan"
              }
            ],
            "text": "Diabetes clinical management plan"
          }
        ],
        "description": "Basic Diabetes Mellitus Type 2 Therapy",
        "subject": {
          "reference": "Patient/cf-1502030067739"
        },
        "period": {
          "start": "2017-08-01"
        },
        "author": [
          {
            "reference": "Practitioner/cf-1502030092557"
          }
        ],
        "activity": [
          {
            "reference": {
              "reference": "MedicationRequest/cf-1502032076193"
            }
          },
          {
            "reference": {
              "reference": "DeviceRequest/cf-1502030685295"
            }
          },
          {
            "reference": {
              "reference": "DeviceRequest/cf-1502030332703"
            }
          }
        ]
      },
      "search": {
        "mode": "match"
      }
    },
    {
      "fullUrl": "http://fhirtest.uhn.ca/baseDstu3/CarePlan/cf-1502030147369",
      "resource": {
        "resourceType": "CarePlan",
        "id": "cf-1502030147369",
        "meta": {
          "versionId": "4",
          "lastUpdated": "2017-08-07T19:31:19.094-04:00"
        },
        "text": {
          "status": "generated",
          "div": "<div xmlns=\"http://www.w3.org/1999/xhtml\"><div>Lifestyle changes (Diabetes)</div><a name=\"mm\"/></div>"
        },
        "status": "active",
        "intent": "proposal",
        "category": [
          {
            "coding": [
              {
                "system": "http://snomed.info/sct",
                "code": "698360004",
                "display": "Diabetes self management plan"
              }
            ],
            "text": "Diabetes self management plan"
          }
        ],
        "description": "Lifestyle changes",
        "subject": {
          "reference": "Patient/cf-1502030067739"
        },
        "period": {
          "start": "2017-06-10",
          "end": "2017-10-30"
        },
        "author": [
          {
            "reference": "Practitioner/cf-1502030092557"
          }
        ],
        "activity": [
          {
            "reference": {
              "reference": "ProcedureRequest/cf-1502032767301"
            }
          },
          {
            "reference": {
              "reference": "ProcedureRequest/cf-1502032819860"
            }
          },
          {
            "reference": {
              "reference": "ProcedureRequest/cf-1502032650192"
            }
          },
          {
            "reference": {
              "reference": "ProcedureRequest/cf-1502032667447"
            }
          }
        ]
      },
      "search": {
        "mode": "match"
      }
    },
    {
      "fullUrl": "http://fhirtest.uhn.ca/baseDstu3/DeviceRequest/cf-1502030332703",
      "resource": {
        "resourceType": "DeviceRequest",
        "id": "cf-1502030332703",
        "meta": {
          "versionId": "1",
          "lastUpdated": "2017-08-07T19:31:19.094-04:00"
        },
        "text": {
          "status": "generated",
          "div": "<div xmlns=\"http://www.w3.org/1999/xhtml\">Daily weight measurements</div>"
        },
        "basedOn": [
          {
            "reference": "CarePlan/cf-1502030147369"
          }
        ],
        "status": "draft",
        "intent": {
          "coding": [
            {
              "system": "http://hl7.org/fhir/request-intent",
              "code": "plan",
              "display": "Plan"
            }
          ]
        },
        "priority": "routine",
        "codeCodeableConcept": {
          "coding": [
            {
              "system": "http://snomed.info/sct",
              "code": "19892000",
              "display": "Scale"
            }
          ]
        },
        "subject": {
          "reference": "Patient/cf-1502030067739"
        },
        "occurrenceTiming": {
          "repeat": {
            "boundsPeriod": {
              "start": "2017-08-01"
            },
            "frequency": 1,
            "period": 1,
            "periodUnit": "d"
          },
          "code": {
            "coding": [
              {
                "system": "http://hl7.org/fhir/v3/GTSAbbreviation",
                "code": "QD",
                "display": "QD"
              }
            ],
            "text": "Every Day at institution specified time"
          }
        },
        "requester": {
          "agent": {
            "reference": "Practitioner/cf-1502030092557"
          }
        },
        "performerType": {
          "coding": [
            {
              "system": "http://snomed.info/sct",
              "code": "116154003",
              "display": "Patient"
            }
          ],
          "text": "Patient"
        },
        "performer": {
          "reference": "Patient/cf-1502030067739"
        },
        "reasonCode": [
          {
            "coding": [
              {
                "system": "http://snomed.info/sct",
                "code": "44054006",
                "display": "Diabetes mellitus type 2"
              }
            ],
            "text": "Diabetes mellitus type 2"
          }
        ]
      },
      "search": {
        "mode": "include"
      }
    },
    {
      "fullUrl": "http://fhirtest.uhn.ca/baseDstu3/DeviceRequest/cf-1502030320719",
      "resource": {
        "resourceType": "DeviceRequest",
        "id": "cf-1502030320719",
        "meta": {
          "versionId": "1",
          "lastUpdated": "2017-08-07T19:31:19.094-04:00"
        },
        "text": {
          "status": "generated",
          "div": "<div xmlns=\"http://www.w3.org/1999/xhtml\">Daily weight measurements</div>"
        },
        "basedOn": [
          {
            "reference": "CarePlan/cf-1502030215339"
          }
        ],
        "status": "active",
        "intent": {
          "coding": [
            {
              "system": "http://hl7.org/fhir/request-intent",
              "code": "plan",
              "display": "Plan"
            }
          ]
        },
        "priority": "routine",
        "codeCodeableConcept": {
          "coding": [
            {
              "system": "http://snomed.info/sct",
              "code": "19892000",
              "display": "Scale"
            }
          ]
        },
        "subject": {
          "reference": "Patient/cf-1502030067739"
        },
        "occurrenceTiming": {
          "repeat": {
            "boundsPeriod": {
              "start": "2016-10-12"
            },
            "frequency": 1,
            "period": 1,
            "periodUnit": "d"
          },
          "code": {
            "coding": [
              {
                "system": "http://hl7.org/fhir/v3/GTSAbbreviation",
                "code": "QD",
                "display": "QD"
              }
            ],
            "text": "Every Day at institution specified time"
          }
        },
        "requester": {
          "agent": {
            "reference": "Practitioner/cf-1502030117433"
          }
        },
        "performerType": {
          "coding": [
            {
              "system": "http://snomed.info/sct",
              "code": "116154003",
              "display": "Patient"
            }
          ],
          "text": "Patient"
        },
        "performer": {
          "reference": "Patient/cf-1502030067739"
        },
        "reasonCode": [
          {
            "coding": [
              {
                "system": "http://snomed.info/sct",
                "code": "84114007",
                "display": "Cardiac insufficiency"
              }
            ],
            "text": "Cardiac insufficiency"
          }
        ],
        "note": [
          {
            "text": "Inform Practitioner in case of unusual increase of weight (1kg/night, >2kg/2-3 days, >2.5kg/week)"
          }
        ]
      },
      "search": {
        "mode": "include"
      }
    },
    {
      "fullUrl": "http://fhirtest.uhn.ca/baseDstu3/MedicationRequest/cf-1502031074742",
      "resource": {
        "resourceType": "MedicationRequest",
        "id": "cf-1502031074742",
        "meta": {
          "versionId": "2",
          "lastUpdated": "2017-08-07T19:31:19.094-04:00"
        },
        "text": {
          "status": "generated",
          "div": "<div xmlns=\"http://www.w3.org/1999/xhtml\">Bisoprolol medication - full dosage</div>"
        },
        "basedOn": [
          {
            "reference": "CarePlan/cf-1502030236934"
          }
        ],
        "status": "active",
        "intent": "instance-order",
        "priority": "urgent",
        "medicationCodeableConcept": {
          "coding": [
            {
              "system": "http://snomed.info/sct",
              "code": "386868003",
              "display": "Bisoprolol"
            }
          ],
          "text": "Bisoprolol"
        },
        "subject": {
          "reference": "Patient/cf-1502030067739"
        },
        "requester": {
          "agent": {
            "reference": "Practitioner/cf-1502030117433"
          }
        },
        "reasonCode": [
          {
            "coding": [
              {
                "system": "http://snomed.info/sct",
                "code": "84114007",
                "display": "Cardiac insufficiency"
              }
            ],
            "text": "Cardiac insufficiency"
          }
        ],
        "note": [
          {
            "text": "Dosage to be increased in thriweekly intervals"
          }
        ],
        "dosageInstruction": [
          {
            "timing": {
              "repeat": {
                "boundsPeriod": {
                  "start": "2014-05-12"
                },
                "frequency": 2,
                "period": 1,
                "periodUnit": "d"
              },
              "code": {
                "coding": [
                  {
                    "system": "https://www.hl7.org/fhir/v3/GTSAbbreviation/cs.html",
                    "code": "BID",
                    "display": "BID"
                  }
                ],
                "text": "Two times a day at institution specified times"
              }
            },
            "route": {
              "coding": [
                {
                  "system": "http://snomed.info/sct",
                  "code": "260548002",
                  "display": "Oral"
                }
              ],
              "text": "Oral"
            },
            "rateRatio": {
              "numerator": {
                "value": 10,
                "unit": "mg",
                "system": "http://snomed.info/sct",
                "code": "258684004"
              },
              "denominator": {
                "value": 1,
                "unit": "d",
                "system": "http://snomed.info/sct",
                "code": "258703001"
              }
            }
          }
        ],
        "priorPrescription": {
          "reference": "MedicationRequest/cf-1502031196772"
        }
      },
      "search": {
        "mode": "include"
      }
    },
    {
      "fullUrl": "http://fhirtest.uhn.ca/baseDstu3/DeviceRequest/cf-1502030848471",
      "resource": {
        "resourceType": "DeviceRequest",
        "id": "cf-1502030848471",
        "meta": {
          "versionId": "1",
          "lastUpdated": "2017-08-07T19:31:19.094-04:00"
        },
        "text": {
          "status": "generated",
          "div": "<div xmlns=\"http://www.w3.org/1999/xhtml\">Use body elastic exerciser at home</div>"
        },
        "basedOn": [
          {
            "reference": "CarePlan/cf-1502030215339"
          }
        ],
        "status": "active",
        "intent": {
          "coding": [
            {
              "system": "http://hl7.org/fhir/request-intent",
              "code": "plan",
              "display": "Plan"
            }
          ]
        },
        "priority": "routine",
        "codeCodeableConcept": {
          "coding": [
            {
              "system": "http://snomed.info/sct",
              "code": "467120005",
              "display": "Body elastic exerciser"
            }
          ]
        },
        "subject": {
          "reference": "Patient/cf-1502030067739"
        },
        "occurrenceTiming": {
          "repeat": {
            "boundsPeriod": {
              "start": "2016-10-12"
            },
            "duration": 30,
            "durationUnit": "min",
            "frequency": 3,
            "period": 1,
            "periodUnit": "wk"
          },
          "code": {
            "coding": [
              {
                "system": "http://hl7.org/fhir/v3/GTSAbbreviation",
                "code": "TID",
                "display": "TID"
              }
            ],
            "text": "Three times a day at institution specified times"
          }
        },
        "requester": {
          "agent": {
            "reference": "Practitioner/cf-1502030117433"
          }
        },
        "performerType": {
          "coding": [
            {
              "system": "http://snomed.info/sct",
              "code": "116154003",
              "display": "Patient"
            }
          ],
          "text": "Patient"
        },
        "performer": {
          "reference": "Patient/cf-1502030067739"
        },
        "reasonCode": [
          {
            "coding": [
              {
                "system": "http://snomed.info/sct",
                "code": "84114007",
                "display": "Cardiac insufficiency"
              }
            ],
            "text": "Cardiac insufficiency"
          }
        ]
      },
      "search": {
        "mode": "include"
      }
    },
    {
      "fullUrl": "http://fhirtest.uhn.ca/baseDstu3/DeviceRequest/cf-1502030685295",
      "resource": {
        "resourceType": "DeviceRequest",
        "id": "cf-1502030685295",
        "meta": {
          "versionId": "1",
          "lastUpdated": "2017-08-07T19:31:19.094-04:00"
        },
        "text": {
          "status": "generated",
          "div": "<div xmlns=\"http://www.w3.org/1999/xhtml\">Self monitoring of blood sugar</div>"
        },
        "basedOn": [
          {
            "reference": "CarePlan/cf-1502030192555"
          }
        ],
        "status": "active",
        "intent": {
          "coding": [
            {
              "system": "http://hl7.org/fhir/request-intent",
              "code": "order",
              "display": "Order"
            }
          ]
        },
        "priority": "routine",
        "codeCodeableConcept": {
          "coding": [
            {
              "system": "http://snomed.info/sct",
              "code": "337414009",
              "display": "Blood glucose meters"
            }
          ]
        },
        "subject": {
          "reference": "Patient/cf-1502030067739"
        },
        "occurrenceTiming": {
          "repeat": {
            "boundsPeriod": {
              "start": "2017-08-01"
            },
            "frequency": 3,
            "period": 1,
            "periodUnit": "d"
          },
          "code": {
            "coding": [
              {
                "system": "http://hl7.org/fhir/v3/GTSAbbreviation",
                "code": "TID",
                "display": "TID"
              }
            ],
            "text": "Three times a day at institution specified times"
          }
        },
        "requester": {
          "agent": {
            "reference": "Practitioner/cf-1502030092557"
          }
        },
        "performerType": {
          "coding": [
            {
              "system": "http://snomed.info/sct",
              "code": "116154003",
              "display": "Patient"
            }
          ],
          "text": "Patient"
        },
        "performer": {
          "reference": "Patient/cf-1502030067739"
        },
        "reasonCode": [
          {
            "coding": [
              {
                "system": "http://snomed.info/sct",
                "code": "44054006",
                "display": "Diabetes mellitus type 2"
              }
            ],
            "text": "Diabetes mellitus type 2"
          }
        ]
      },
      "search": {
        "mode": "include"
      }
    },
    {
      "fullUrl": "http://fhirtest.uhn.ca/baseDstu3/DeviceRequest/cf-1502030355096",
      "resource": {
        "resourceType": "DeviceRequest",
        "id": "cf-1502030355096",
        "meta": {
          "versionId": "1",
          "lastUpdated": "2017-08-07T19:31:19.094-04:00"
        },
        "text": {
          "status": "generated",
          "div": "<div xmlns=\"http://www.w3.org/1999/xhtml\">Measurement of oxygen absorption in order to adjust exercises</div>"
        },
        "basedOn": [
          {
            "reference": "CarePlan/cf-1502030215339"
          }
        ],
        "status": "completed",
        "intent": {
          "coding": [
            {
              "system": "http://hl7.org/fhir/request-intent",
              "code": "instance-order",
              "display": "Instance Order"
            }
          ]
        },
        "priority": "asap",
        "codeCodeableConcept": {
          "coding": [
            {
              "system": "http://snomed.info/sct",
              "code": "303501006",
              "display": "Spirometer"
            }
          ]
        },
        "subject": {
          "reference": "Patient/cf-1502030067739"
        },
        "occurrenceDateTime": "2016-10-15",
        "requester": {
          "agent": {
            "reference": "Practitioner/cf-1502030117433"
          }
        },
        "performerType": {
          "coding": [
            {
              "system": "http://snomed.info/sct",
              "code": "6816002",
              "display": "Specialised nurse"
            }
          ],
          "text": "Specialised nurse"
        },
        "reasonCode": [
          {
            "coding": [
              {
                "system": "http://snomed.info/sct",
                "code": "84114007",
                "display": "Cardiac insufficiency"
              }
            ],
            "text": "Cardiac insufficiency"
          }
        ],
        "note": [
          {
            "text": "Measurement of oxygen absorption in order to adjust exercises"
          }
        ]
      },
      "search": {
        "mode": "include"
      }
    },
    {
      "fullUrl": "http://fhirtest.uhn.ca/baseDstu3/MedicationRequest/cf-1502031310206",
      "resource": {
        "resourceType": "MedicationRequest",
        "id": "cf-1502031310206",
        "meta": {
          "versionId": "1",
          "lastUpdated": "2017-08-07T19:31:19.094-04:00"
        },
        "text": {
          "status": "generated",
          "div": "<div xmlns=\"http://www.w3.org/1999/xhtml\">Lisinopril medication - initial dosage</div>"
        },
        "basedOn": [
          {
            "reference": "CarePlan/cf-1502030236934"
          }
        ],
        "status": "completed",
        "intent": "instance-order",
        "priority": "urgent",
        "medicationCodeableConcept": {
          "coding": [
            {
              "system": "http://snomed.info/sct",
              "code": "386873009",
              "display": "Lisinopril"
            }
          ],
          "text": "Lisinopril"
        },
        "subject": {
          "reference": "Patient/cf-1502030067739"
        },
        "requester": {
          "agent": {
            "reference": "Practitioner/cf-1502030117433"
          }
        },
        "reasonCode": [
          {
            "coding": [
              {
                "system": "http://snomed.info/sct",
                "code": "84114007",
                "display": "Cardiac insufficiency"
              }
            ],
            "text": "Cardiac insufficiency"
          }
        ],
        "note": [
          {
            "text": "Dosage to be increased in biweekly intervals"
          }
        ],
        "dosageInstruction": [
          {
            "timing": {
              "repeat": {
                "boundsDuration": {
                  "value": 2,
                  "unit": "wk",
                  "system": "http://unitsofmeasure.org"
                },
                "frequency": 1,
                "period": 1,
                "periodUnit": "d"
              },
              "code": {
                "coding": [
                  {
                    "system": "https://www.hl7.org/fhir/v3/GTSAbbreviation/cs.html",
                    "code": "QD",
                    "display": "QD"
                  }
                ],
                "text": "Every Day at institution specified times"
              }
            },
            "route": {
              "coding": [
                {
                  "system": "http://snomed.info/sct",
                  "code": "260548002",
                  "display": "Oral"
                }
              ],
              "text": "Oral"
            },
            "doseQuantity": {
              "value": 10,
              "unit": "mg",
              "system": "http://snomed.info/sct",
              "code": "258684004"
            }
          }
        ]
      },
      "search": {
        "mode": "include"
      }
    },
    {
      "fullUrl": "http://fhirtest.uhn.ca/baseDstu3/MedicationRequest/cf-1502031196772",
      "resource": {
        "resourceType": "MedicationRequest",
        "id": "cf-1502031196772",
        "meta": {
          "versionId": "1",
          "lastUpdated": "2017-08-07T19:31:19.094-04:00"
        },
        "text": {
          "status": "generated",
          "div": "<div xmlns=\"http://www.w3.org/1999/xhtml\">Bisoprolol medication - dosage adjustment 2</div>"
        },
        "basedOn": [
          {
            "reference": "CarePlan/cf-1502030236934"
          }
        ],
        "status": "completed",
        "intent": "instance-order",
        "priority": "urgent",
        "medicationCodeableConcept": {
          "coding": [
            {
              "system": "http://snomed.info/sct",
              "code": "386868003",
              "display": "Bisoprolol"
            }
          ],
          "text": "Bisoprolol"
        },
        "subject": {
          "reference": "Patient/cf-1502030067739"
        },
        "requester": {
          "agent": {
            "reference": "Practitioner/cf-1502030117433"
          }
        },
        "reasonCode": [
          {
            "coding": [
              {
                "system": "http://snomed.info/sct",
                "code": "84114007",
                "display": "Cardiac insufficiency"
              }
            ],
            "text": "Cardiac insufficiency"
          }
        ],
        "note": [
          {
            "text": "Dosage to be increased in thriweekly intervals"
          }
        ],
        "dosageInstruction": [
          {
            "timing": {
              "repeat": {
                "boundsDuration": {
                  "value": 3,
                  "unit": "wk",
                  "system": "http://unitsofmeasure.org"
                },
                "frequency": 2,
                "period": 1,
                "periodUnit": "d"
              },
              "code": {
                "coding": [
                  {
                    "system": "https://www.hl7.org/fhir/v3/GTSAbbreviation/cs.html",
                    "code": "BID",
                    "display": "BID"
                  }
                ],
                "text": "Two times a day at institution specified times"
              }
            },
            "route": {
              "coding": [
                {
                  "system": "http://snomed.info/sct",
                  "code": "260548002",
                  "display": "Oral"
                }
              ],
              "text": "Oral"
            },
            "rateRatio": {
              "numerator": {
                "value": 7.5,
                "unit": "mg",
                "system": "http://snomed.info/sct",
                "code": "258684004"
              },
              "denominator": {
                "value": 1,
                "unit": "d",
                "system": "http://snomed.info/sct",
                "code": "258703001"
              }
            }
          }
        ],
        "priorPrescription": {
          "reference": "MedicationRequest/cf-1502031146974"
        }
      },
      "search": {
        "mode": "include"
      }
    },
    {
      "fullUrl": "http://fhirtest.uhn.ca/baseDstu3/MedicationRequest/cf-1502031146974",
      "resource": {
        "resourceType": "MedicationRequest",
        "id": "cf-1502031146974",
        "meta": {
          "versionId": "1",
          "lastUpdated": "2017-08-07T19:31:19.094-04:00"
        },
        "text": {
          "status": "generated",
          "div": "<div xmlns=\"http://www.w3.org/1999/xhtml\">Bisoprolol medication - dosage adjustment 1</div>"
        },
        "basedOn": [
          {
            "reference": "CarePlan/cf-1502030236934"
          }
        ],
        "status": "completed",
        "intent": "instance-order",
        "priority": "urgent",
        "medicationCodeableConcept": {
          "coding": [
            {
              "system": "http://snomed.info/sct",
              "code": "386868003",
              "display": "Bisoprolol"
            }
          ],
          "text": "Bisoprolol"
        },
        "subject": {
          "reference": "Patient/cf-1502030067739"
        },
        "requester": {
          "agent": {
            "reference": "Practitioner/cf-1502030117433"
          }
        },
        "reasonCode": [
          {
            "coding": [
              {
                "system": "http://snomed.info/sct",
                "code": "84114007",
                "display": "Cardiac insufficiency"
              }
            ],
            "text": "Cardiac insufficiency"
          }
        ],
        "note": [
          {
            "text": "Dosage to be increased in thriweekly intervals"
          }
        ],
        "dosageInstruction": [
          {
            "timing": {
              "repeat": {
                "boundsDuration": {
                  "value": 3,
                  "unit": "wk",
                  "system": "http://unitsofmeasure.org"
                },
                "frequency": 1,
                "period": 1,
                "periodUnit": "d"
              },
              "code": {
                "coding": [
                  {
                    "system": "https://www.hl7.org/fhir/v3/GTSAbbreviation/cs.html",
                    "code": "QD",
                    "display": "QD"
                  }
                ],
                "text": "Every Day at institution specified times"
              }
            },
            "route": {
              "coding": [
                {
                  "system": "http://snomed.info/sct",
                  "code": "260548002",
                  "display": "Oral"
                }
              ],
              "text": "Oral"
            },
            "doseQuantity": {
              "value": 5,
              "unit": "mg",
              "system": "http://snomed.info/sct",
              "code": "258684004"
            }
          }
        ],
        "priorPrescription": {
          "reference": "MedicationRequest/cf-1502031096691"
        }
      },
      "search": {
        "mode": "include"
      }
    },
    {
      "fullUrl": "http://fhirtest.uhn.ca/baseDstu3/MedicationRequest/cf-1502031096691",
      "resource": {
        "resourceType": "MedicationRequest",
        "id": "cf-1502031096691",
        "meta": {
          "versionId": "1",
          "lastUpdated": "2017-08-07T19:31:19.094-04:00"
        },
        "text": {
          "status": "generated",
          "div": "<div xmlns=\"http://www.w3.org/1999/xhtml\">Bisoprolol medication - initial dosage</div>"
        },
        "basedOn": [
          {
            "reference": "CarePlan/cf-1502030236934"
          }
        ],
        "status": "completed",
        "intent": "instance-order",
        "priority": "urgent",
        "medicationCodeableConcept": {
          "coding": [
            {
              "system": "http://snomed.info/sct",
              "code": "386868003",
              "display": "Bisoprolol"
            }
          ],
          "text": "Bisoprolol"
        },
        "subject": {
          "reference": "Patient/cf-1502030067739"
        },
        "requester": {
          "agent": {
            "reference": "Practitioner/cf-1502030117433"
          }
        },
        "reasonCode": [
          {
            "coding": [
              {
                "system": "http://snomed.info/sct",
                "code": "84114007",
                "display": "Cardiac insufficiency"
              }
            ],
            "text": "Cardiac insufficiency"
          }
        ],
        "note": [
          {
            "text": "Dosage to be increased in thriweekly intervals"
          }
        ],
        "dosageInstruction": [
          {
            "timing": {
              "repeat": {
                "boundsDuration": {
                  "value": 3,
                  "unit": "wk",
                  "system": "http://unitsofmeasure.org"
                },
                "frequency": 1,
                "period": 1,
                "periodUnit": "d"
              },
              "code": {
                "coding": [
                  {
                    "system": "https://www.hl7.org/fhir/v3/GTSAbbreviation/cs.html",
                    "code": "QD",
                    "display": "QD"
                  }
                ],
                "text": "Every Day at institution specified times"
              }
            },
            "route": {
              "coding": [
                {
                  "system": "http://snomed.info/sct",
                  "code": "260548002",
                  "display": "Oral"
                }
              ],
              "text": "Oral"
            },
            "doseQuantity": {
              "value": 2.5,
              "unit": "mg",
              "system": "http://snomed.info/sct",
              "code": "258684004"
            }
          }
        ]
      },
      "search": {
        "mode": "include"
      }
    },
    {
      "fullUrl": "http://fhirtest.uhn.ca/baseDstu3/NutritionOrder/cf-1502030475807",
      "resource": {
        "resourceType": "NutritionOrder",
        "id": "cf-1502030475807",
        "meta": {
          "versionId": "1",
          "lastUpdated": "2017-08-07T19:31:19.094-04:00"
        },
        "text": {
          "status": "generated",
          "div": "<div xmlns=\"http://www.w3.org/1999/xhtml\">Avoid excessive intake of fluids</div>"
        },
        "status": "requested",
        "patient": {
          "reference": "Patient/cf-1502030067739"
        },
        "dateTime": "2016-10-11T14:33:46.000Z",
        "orderer": {
          "reference": "Practitioner/cf-1502030117433"
        },
        "excludeFoodModifier": [
          {
            "coding": [
              {
                "system": "http://snomed.info/sct",
                "code": "53041004",
                "display": "Alcohol"
              }
            ],
            "text": "Alcohol"
          }
        ],
        "oralDiet": {
          "type": [
            {
              "coding": [
                {
                  "system": "http://snomed.info/sct",
                  "code": "361231003",
                  "display": "Prescribed dietary intake"
                }
              ],
              "text": "Prescribed dietary intake"
            }
          ],
          "schedule": [
            {
              "repeat": {
                "boundsPeriod": {
                  "start": "2016-10-12"
                }
              }
            }
          ],
          "nutrient": [
            {
              "modifier": {
                "coding": [
                  {
                    "system": "http://snomed.info/sct",
                    "code": "33463005",
                    "display": "Liquid substance"
                  }
                ],
                "text": "Liquid substance"
              },
              "amount": {
                "value": 2,
                "unit": "Litre/day",
                "system": "http://snomed.info/sct",
                "code": "258857003"
              }
            }
          ],
          "instruction": "Avoid excessive intake of fluids"
        }
      },
      "search": {
        "mode": "include"
      }
    },
    {
      "fullUrl": "http://fhirtest.uhn.ca/baseDstu3/MedicationRequest/cf-1502032076193",
      "resource": {
        "resourceType": "MedicationRequest",
        "id": "cf-1502032076193",
        "meta": {
          "versionId": "1",
          "lastUpdated": "2017-08-07T19:31:19.094-04:00"
        },
        "text": {
          "status": "generated",
          "div": "<div xmlns=\"http://www.w3.org/1999/xhtml\">Metformin medication</div>"
        },
        "basedOn": [
          {
            "reference": "CarePlan/cf-1502030192555"
          }
        ],
        "status": "active",
        "intent": "order",
        "priority": "routine",
        "medicationCodeableConcept": {
          "coding": [
            {
              "system": "http://snomed.info/sct",
              "code": "714599005",
              "display": "Oral form metformin"
            }
          ],
          "text": "Oral form metformin"
        },
        "subject": {
          "reference": "Patient/cf-1502030067739"
        },
        "requester": {
          "agent": {
            "reference": "Practitioner/cf-1502030092557"
          }
        },
        "reasonCode": [
          {
            "coding": [
              {
                "system": "http://snomed.info/sct",
                "code": "44054006",
                "display": "Diabetes mellitus type 2"
              }
            ],
            "text": "Diabetes mellitus type 2"
          }
        ],
        "dosageInstruction": [
          {
            "text": "with or directly after breakfast",
            "timing": {
              "repeat": {
                "boundsPeriod": {
                  "start": "2017-08-01"
                },
                "frequency": 1,
                "period": 1,
                "periodUnit": "d"
              },
              "code": {
                "coding": [
                  {
                    "system": "https://www.hl7.org/fhir/v3/GTSAbbreviation",
                    "code": "AM",
                    "display": "AM"
                  }
                ],
                "text": "Every morning at institution specified times"
              }
            },
            "route": {
              "coding": [
                {
                  "system": "http://snomed.info/sct",
                  "code": "260548002",
                  "display": "Oral"
                }
              ],
              "text": "Oral"
            },
            "doseQuantity": {
              "value": 500,
              "unit": "mg",
              "system": "http://snomed.info/sct",
              "code": "258684004"
            }
          },
          {
            "text": "with or directly after dinner",
            "timing": {
              "repeat": {
                "boundsPeriod": {
                  "start": "2017-08-01"
                },
                "frequency": 1,
                "period": 1,
                "periodUnit": "d"
              },
              "code": {
                "coding": [
                  {
                    "system": "https://www.hl7.org/fhir/v3/GTSAbbreviation",
                    "code": "QD",
                    "display": "QD"
                  }
                ],
                "text": "Every day at institution specified times"
              }
            },
            "route": {
              "coding": [
                {
                  "system": "http://snomed.info/sct",
                  "code": "260548002",
                  "display": "Oral"
                }
              ],
              "text": "Oral"
            },
            "doseQuantity": {
              "value": 250,
              "unit": "mg",
              "system": "http://snomed.info/sct",
              "code": "258684004"
            }
          }
        ]
      },
      "search": {
        "mode": "include"
      }
    },
    {
      "fullUrl": "http://fhirtest.uhn.ca/baseDstu3/MedicationRequest/cf-1502031409350",
      "resource": {
        "resourceType": "MedicationRequest",
        "id": "cf-1502031409350",
        "meta": {
          "versionId": "1",
          "lastUpdated": "2017-08-07T19:31:19.094-04:00"
        },
        "text": {
          "status": "generated",
          "div": "<div xmlns=\"http://www.w3.org/1999/xhtml\">Lisinopril medication - full dosage</div>"
        },
        "basedOn": [
          {
            "reference": "CarePlan/cf-1502030236934"
          }
        ],
        "status": "active",
        "intent": "instance-order",
        "priority": "routine",
        "medicationCodeableConcept": {
          "coding": [
            {
              "system": "http://snomed.info/sct",
              "code": "386873009",
              "display": "Lisinopril"
            }
          ],
          "text": "Lisinopril"
        },
        "subject": {
          "reference": "Patient/cf-1502030067739"
        },
        "requester": {
          "agent": {
            "reference": "Practitioner/cf-1502030117433"
          }
        },
        "reasonCode": [
          {
            "coding": [
              {
                "system": "http://snomed.info/sct",
                "code": "84114007",
                "display": "Cardiac insufficiency"
              }
            ],
            "text": "Cardiac insufficiency"
          }
        ],
        "dosageInstruction": [
          {
            "timing": {
              "repeat": {
                "boundsPeriod": {
                  "start": "2014-04-09"
                },
                "frequency": 1,
                "period": 1,
                "periodUnit": "d"
              },
              "code": {
                "coding": [
                  {
                    "system": "https://www.hl7.org/fhir/v3/GTSAbbreviation/cs.html",
                    "code": "QD",
                    "display": "QD"
                  }
                ],
                "text": "Every Day at institution specified times"
              }
            },
            "route": {
              "coding": [
                {
                  "system": "http://snomed.info/sct",
                  "code": "260548002",
                  "display": "Oral"
                }
              ],
              "text": "Oral"
            },
            "doseQuantity": {
              "value": 30,
              "unit": "mg",
              "system": "http://snomed.info/sct",
              "code": "258684004"
            }
          }
        ],
        "priorPrescription": {
          "reference": "MedicationRequest/cf-1502031358974"
        }
      },
      "search": {
        "mode": "include"
      }
    },
    {
      "fullUrl": "http://fhirtest.uhn.ca/baseDstu3/MedicationRequest/cf-1502031358974",
      "resource": {
        "resourceType": "MedicationRequest",
        "id": "cf-1502031358974",
        "meta": {
          "versionId": "1",
          "lastUpdated": "2017-08-07T19:31:19.094-04:00"
        },
        "text": {
          "status": "generated",
          "div": "<div xmlns=\"http://www.w3.org/1999/xhtml\">Lisinopril medication - dosage adjustment 1</div>"
        },
        "basedOn": [
          {
            "reference": "CarePlan/cf-1502030236934"
          }
        ],
        "status": "completed",
        "intent": "instance-order",
        "priority": "urgent",
        "medicationCodeableConcept": {
          "coding": [
            {
              "system": "http://snomed.info/sct",
              "code": "386873009",
              "display": "Lisinopril"
            }
          ],
          "text": "Lisinopril"
        },
        "subject": {
          "reference": "Patient/cf-1502030067739"
        },
        "requester": {
          "agent": {
            "reference": "Practitioner/cf-1502030117433"
          }
        },
        "reasonCode": [
          {
            "coding": [
              {
                "system": "http://snomed.info/sct",
                "code": "84114007",
                "display": "Cardiac insufficiency"
              }
            ],
            "text": "Cardiac insufficiency"
          }
        ],
        "note": [
          {
            "text": "Dosage to be increased in biweekly intervals"
          }
        ],
        "dosageInstruction": [
          {
            "timing": {
              "repeat": {
                "boundsDuration": {
                  "value": 2,
                  "unit": "wk",
                  "system": "http://unitsofmeasure.org"
                },
                "frequency": 1,
                "period": 1,
                "periodUnit": "d"
              },
              "code": {
                "coding": [
                  {
                    "system": "https://www.hl7.org/fhir/v3/GTSAbbreviation/cs.html",
                    "code": "QD",
                    "display": "QD"
                  }
                ],
                "text": "Every Day at institution specified times"
              }
            },
            "route": {
              "coding": [
                {
                  "system": "http://snomed.info/sct",
                  "code": "260548002",
                  "display": "Oral"
                }
              ],
              "text": "Oral"
            },
            "doseQuantity": {
              "value": 20,
              "unit": "mg",
              "system": "http://snomed.info/sct",
              "code": "258684004"
            }
          }
        ],
        "priorPrescription": {
          "reference": "MedicationRequest/cf-1502031310206"
        }
      },
      "search": {
        "mode": "include"
      }
    },
    {
      "fullUrl": "http://fhirtest.uhn.ca/baseDstu3/ProcedureRequest/cf-1502030273656",
      "resource": {
        "resourceType": "ProcedureRequest",
        "id": "cf-1502030273656",
        "meta": {
          "versionId": "1",
          "lastUpdated": "2017-08-07T19:31:19.094-04:00"
        },
        "text": {
          "status": "generated",
          "div": "<div xmlns=\"http://www.w3.org/1999/xhtml\">Alcohol consumption counselling</div>"
        },
        "basedOn": [
          {
            "reference": "CarePlan/cf-1502030215339"
          }
        ],
        "status": "completed",
        "intent": "proposal",
        "priority": "routine",
        "category": [
          {
            "coding": [
              {
                "system": "http://snomed.info/sct",
                "code": "409063005",
                "display": "Counselling"
              }
            ],
            "text": "Counselling"
          }
        ],
        "code": {
          "coding": [
            {
              "system": "http://snomed.info/sct",
              "code": "413473000",
              "display": "Counseling about alcohol consumption"
            }
          ],
          "text": "Counseling about alcohol consumption"
        },
        "subject": {
          "reference": "Patient/cf-1502030067739"
        },
        "occurrenceDateTime": "2016-11-03",
        "requester": {
          "agent": {
            "reference": "Practitioner/cf-1502030117433"
          }
        },
        "reasonCode": [
          {
            "coding": [
              {
                "system": "http://snomed.info/sct",
                "code": "84114007",
                "display": "Cardiac insufficiency"
              }
            ],
            "text": "Cardiac insufficiency"
          }
        ],
        "note": [
          {
            "text": "Requested to avoid alcohol consumption."
          }
        ]
      },
      "search": {
        "mode": "include"
      }
    },
    {
      "fullUrl": "http://fhirtest.uhn.ca/baseDstu3/Patient/cf-1502030067739",
      "resource": {
        "resourceType": "Patient",
        "id": "cf-1502030067739",
        "meta": {
          "versionId": "1",
          "lastUpdated": "2017-08-07T19:31:19.094-04:00"
        },
        "text": {
          "status": "generated",
          "div": "<div xmlns=\"http://www.w3.org/1999/xhtml\">Harley Hobbs, Diabetes and Cardiac Insufficiency</div>"
        },
        "active": true,
        "name": [
          {
            "use": "official",
            "family": "Hobbs",
            "given": [
              "Harley"
            ]
          }
        ],
        "telecom": [
          {
            "system": "phone",
            "value": "077 8169 8899",
            "use": "home"
          }
        ],
        "gender": "male",
        "birthDate": "1935-06-07",
        "deceasedBoolean": false,
        "address": [
          {
            "use": "home",
            "text": "16 Pier Road, STANWARDINE IN THE FIELDS, SY4 7IW",
            "line": [
              "16 Pier Road"
            ],
            "city": "STANWARDINE IN THE FIELDS",
            "postalCode": "SY4 7IW"
          }
        ]
      },
      "search": {
        "mode": "include"
      }
    },
    {
      "fullUrl": "http://fhirtest.uhn.ca/baseDstu3/ProcedureRequest/cf-1502032534419",
      "resource": {
        "resourceType": "ProcedureRequest",
        "id": "cf-1502032534419",
        "meta": {
          "versionId": "1",
          "lastUpdated": "2017-08-07T19:31:19.094-04:00"
        },
        "text": {
          "status": "generated",
          "div": "<div xmlns=\"http://www.w3.org/1999/xhtml\">Physical examinations - ongoing</div>"
        },
        "basedOn": [
          {
            "reference": "CarePlan/cf-1502030236934"
          }
        ],
        "replaces": [
          {
            "reference": "ProcedureRequest/cf-1502032464157"
          }
        ],
        "status": "active",
        "intent": "instance-order",
        "priority": "routine",
        "category": [
          {
            "coding": [
              {
                "system": "http://snomed.info/sct",
                "code": "103693007",
                "display": "Diagnostic procedure"
              }
            ],
            "text": "Diagnostic procedure"
          }
        ],
        "code": {
          "coding": [
            {
              "system": "http://snomed.info/sct",
              "code": "5880005",
              "display": "Physical examination"
            }
          ],
          "text": "Physical examination"
        },
        "subject": {
          "reference": "Patient/cf-1502030067739"
        },
        "occurrenceTiming": {
          "repeat": {
            "boundsPeriod": {
              "start": "2014-06-12"
            },
            "frequency": 3,
            "period": 1,
            "periodUnit": "a"
          },
          "code": {
            "coding": [
              {
                "system": "http://snomed.info/sct",
                "code": "307457000",
                "display": "Three times per year"
              }
            ],
            "text": "Three times per year"
          }
        },
        "requester": {
          "agent": {
            "reference": "Practitioner/cf-1502030117433"
          }
        },
        "performerType": {
          "coding": [
            {
              "system": "http://snomed.info/sct",
              "code": "22515006",
              "display": "Medical assistant"
            }
          ],
          "text": "Medical assistant"
        },
        "reasonCode": [
          {
            "coding": [
              {
                "system": "http://snomed.info/sct",
                "code": "84114007",
                "display": "Cardiac insufficiency"
              }
            ],
            "text": "Cardiac insufficiency"
          }
        ]
      },
      "search": {
        "mode": "include"
      }
    },
    {
      "fullUrl": "http://fhirtest.uhn.ca/baseDstu3/ProcedureRequest/cf-1502032464157",
      "resource": {
        "resourceType": "ProcedureRequest",
        "id": "cf-1502032464157",
        "meta": {
          "versionId": "1",
          "lastUpdated": "2017-08-07T19:31:19.094-04:00"
        },
        "text": {
          "status": "generated",
          "div": "<div xmlns=\"http://www.w3.org/1999/xhtml\">Physical examinations - regular</div>"
        },
        "basedOn": [
          {
            "reference": "CarePlan/cf-1502030236934"
          }
        ],
        "status": "completed",
        "intent": "instance-order",
        "priority": "urgent",
        "category": [
          {
            "coding": [
              {
                "system": "http://snomed.info/sct",
                "code": "103693007",
                "display": "Diagnostic procedure"
              }
            ],
            "text": "Diagnostic procedure"
          }
        ],
        "code": {
          "coding": [
            {
              "system": "http://snomed.info/sct",
              "code": "5880005",
              "display": "Physical examination"
            }
          ],
          "text": "Physical examination"
        },
        "subject": {
          "reference": "Patient/cf-1502030067739"
        },
        "occurrenceTiming": {
          "repeat": {
            "boundsPeriod": {
              "start": "2014-03-12",
              "end": "2014-06-12"
            },
            "frequency": 1,
            "period": 1,
            "periodUnit": "wk"
          },
          "code": {
            "coding": [
              {
                "system": "http://snomed.info/sct",
                "code": "14497002",
                "display": "Weekly"
              }
            ],
            "text": "Weekly"
          }
        },
        "requester": {
          "agent": {
            "reference": "Practitioner/cf-1502030117433"
          }
        },
        "performerType": {
          "coding": [
            {
              "system": "http://snomed.info/sct",
              "code": "22515006",
              "display": "Medical assistant"
            }
          ],
          "text": "Medical assistant"
        },
        "reasonCode": [
          {
            "coding": [
              {
                "system": "http://snomed.info/sct",
                "code": "84114007",
                "display": "Cardiac insufficiency"
              }
            ],
            "text": "Cardiac insufficiency"
          }
        ]
      },
      "search": {
        "mode": "include"
      }
    },
    {
      "fullUrl": "http://fhirtest.uhn.ca/baseDstu3/ProcedureRequest/cf-1502032333283",
      "resource": {
        "resourceType": "ProcedureRequest",
        "id": "cf-1502032333283",
        "meta": {
          "versionId": "1",
          "lastUpdated": "2017-08-07T19:31:19.094-04:00"
        },
        "text": {
          "status": "generated",
          "div": "<div xmlns=\"http://www.w3.org/1999/xhtml\">Laboratory tests - initial</div>"
        },
        "basedOn": [
          {
            "reference": "CarePlan/cf-1502030236934"
          }
        ],
        "status": "completed",
        "intent": "instance-order",
        "priority": "urgent",
        "category": [
          {
            "coding": [
              {
                "system": "http://snomed.info/sct",
                "code": "103693007",
                "display": "Diagnostic procedure"
              }
            ],
            "text": "Diagnostic procedure"
          }
        ],
        "code": {
          "coding": [
            {
              "system": "http://snomed.info/sct",
              "code": "15220000",
              "display": "Laboratory test"
            }
          ],
          "text": "Laboratory test"
        },
        "subject": {
          "reference": "Patient/cf-1502030067739"
        },
        "occurrenceTiming": {
          "repeat": {
            "boundsDuration": {
              "value": 3,
              "unit": "mo",
              "system": "http://unitsofmeasure.org"
            },
            "frequency": 1,
            "period": 2,
            "periodUnit": "wk",
            "dayOfWeek": [
              "wed"
            ]
          },
          "code": {
            "coding": [
              {
                "system": "http://snomed.info/sct",
                "code": "20050000",
                "display": "Biweekly"
              }
            ],
            "text": "Biweekly"
          }
        },
        "requester": {
          "agent": {
            "reference": "Practitioner/cf-1502030117433"
          }
        },
        "reasonCode": [
          {
            "coding": [
              {
                "system": "http://snomed.info/sct",
                "code": "84114007",
                "display": "Cardiac insufficiency"
              }
            ],
            "text": "Cardiac insufficiency"
          }
        ],
        "note": [
          {
            "text": "1-2 weeks after every dosage increase"
          }
        ]
      },
      "search": {
        "mode": "include"
      }
    },
    {
      "fullUrl": "http://fhirtest.uhn.ca/baseDstu3/ProcedureRequest/cf-1502032316969",
      "resource": {
        "resourceType": "ProcedureRequest",
        "id": "cf-1502032316969",
        "meta": {
          "versionId": "1",
          "lastUpdated": "2017-08-07T19:31:19.094-04:00"
        },
        "text": {
          "status": "generated",
          "div": "<div xmlns=\"http://www.w3.org/1999/xhtml\">Laboratory tests - ongoing</div>"
        },
        "basedOn": [
          {
            "reference": "CarePlan/cf-1502030236934"
          }
        ],
        "replaces": [
          {
            "reference": "ProcedureRequest/cf-1502032333283"
          }
        ],
        "status": "active",
        "intent": "instance-order",
        "priority": "routine",
        "category": [
          {
            "coding": [
              {
                "system": "http://snomed.info/sct",
                "code": "103693007",
                "display": "Diagnostic procedure"
              }
            ],
            "text": "Diagnostic procedure"
          }
        ],
        "code": {
          "coding": [
            {
              "system": "http://snomed.info/sct",
              "code": "15220000",
              "display": "Laboratory test"
            }
          ],
          "text": "Laboratory test"
        },
        "subject": {
          "reference": "Patient/cf-1502030067739"
        },
        "occurrenceTiming": {
          "repeat": {
            "boundsPeriod": {
              "start": "2014-06-12"
            },
            "frequency": 1,
            "period": 6,
            "periodUnit": "mo",
            "dayOfWeek": [
              "wed"
            ]
          },
          "code": {
            "coding": [
              {
                "system": "http://snomed.info/sct",
                "code": "307456009",
                "display": "Twice per year"
              }
            ],
            "text": "Twice per year"
          }
        },
        "requester": {
          "agent": {
            "reference": "Practitioner/cf-1502030117433"
          }
        },
        "reasonCode": [
          {
            "coding": [
              {
                "system": "http://snomed.info/sct",
                "code": "84114007",
                "display": "Cardiac insufficiency"
              }
            ],
            "text": "Cardiac insufficiency"
          }
        ]
      },
      "search": {
        "mode": "include"
      }
    },
    {
      "fullUrl": "http://fhirtest.uhn.ca/baseDstu3/ProcedureRequest/cf-1502032692537",
      "resource": {
        "resourceType": "ProcedureRequest",
        "id": "cf-1502032692537",
        "meta": {
          "versionId": "1",
          "lastUpdated": "2017-08-07T19:31:19.094-04:00"
        },
        "text": {
          "status": "generated",
          "div": "<div xmlns=\"http://www.w3.org/1999/xhtml\">Kinetic activities for strengthening</div>"
        },
        "basedOn": [
          {
            "reference": "CarePlan/cf-1502030215339"
          }
        ],
        "status": "active",
        "intent": "proposal",
        "priority": "routine",
        "code": {
          "coding": [
            {
              "system": "http://snomed.info/sct",
              "code": "61502001",
              "display": " Kinetic activities for strengthening"
            }
          ],
          "text": " Kinetic activities for strengthening"
        },
        "subject": {
          "reference": "Patient/cf-1502030067739"
        },
        "occurrenceTiming": {
          "repeat": {
            "boundsPeriod": {
              "start": "2016-10-12"
            },
            "duration": 30,
            "durationUnit": "min",
            "frequency": 2,
            "period": 1,
            "periodUnit": "wk"
          },
          "code": {
            "coding": [
              {
                "system": "http://snomed.info/sct",
                "code": "225751007",
                "display": "2-3 times a week"
              }
            ],
            "text": "Two to three times a week"
          }
        },
        "requester": {
          "agent": {
            "reference": "Practitioner/cf-1502030117433"
          }
        },
        "performerType": {
          "coding": [
            {
              "system": "http://snomed.info/sct",
              "code": "116154003",
              "display": "Patient"
            }
          ],
          "text": "Patient"
        },
        "performer": {
          "reference": "Patient/cf-1502030067739"
        },
        "reasonCode": [
          {
            "coding": [
              {
                "system": "http://snomed.info/sct",
                "code": "84114007",
                "display": "Cardiac insufficiency"
              }
            ],
            "text": "Cardiac insufficiency"
          }
        ]
      },
      "search": {
        "mode": "include"
      }
    },
    {
      "fullUrl": "http://fhirtest.uhn.ca/baseDstu3/ProcedureRequest/cf-1502032667447",
      "resource": {
        "resourceType": "ProcedureRequest",
        "id": "cf-1502032667447",
        "meta": {
          "versionId": "1",
          "lastUpdated": "2017-08-07T19:31:19.094-04:00"
        },
        "text": {
          "status": "generated",
          "div": "<div xmlns=\"http://www.w3.org/1999/xhtml\">Dietary education for diabetes 2</div>"
        },
        "basedOn": [
          {
            "reference": "CarePlan/cf-1502030147369"
          }
        ],
        "status": "completed",
        "intent": "order",
        "priority": "routine",
        "category": [
          {
            "coding": [
              {
                "system": "http://snomed.info/sct",
                "code": "409073007",
                "display": "Education"
              }
            ],
            "text": "Education"
          }
        ],
        "code": {
          "coding": [
            {
              "system": "http://snomed.info/sct",
              "code": "428274007",
              "display": "Dietary education for type II diabetes mellitus"
            }
          ],
          "text": "Dietary education for type II diabetes mellitus"
        },
        "subject": {
          "reference": "Patient/cf-1502030067739"
        },
        "occurrenceDateTime": "2017-07-24",
        "requester": {
          "agent": {
            "reference": "Practitioner/cf-1502030092557"
          }
        },
        "performerType": {
          "coding": [
            {
              "system": "http://snomed.info/sct",
              "code": "159033005",
              "display": "Dietitian"
            }
          ],
          "text": "Dietitian"
        },
        "reasonCode": [
          {
            "coding": [
              {
                "system": "http://snomed.info/sct",
                "code": "44054006",
                "display": "Diabetes mellitus type 2"
              }
            ],
            "text": "Diabetes mellitus type 2"
          }
        ]
      },
      "search": {
        "mode": "include"
      }
    },
    {
      "fullUrl": "http://fhirtest.uhn.ca/baseDstu3/ProcedureRequest/cf-1502032650192",
      "resource": {
        "resourceType": "ProcedureRequest",
        "id": "cf-1502032650192",
        "meta": {
          "versionId": "1",
          "lastUpdated": "2017-08-07T19:31:19.094-04:00"
        },
        "text": {
          "status": "generated",
          "div": "<div xmlns=\"http://www.w3.org/1999/xhtml\">Diabetic care education</div>"
        },
        "basedOn": [
          {
            "reference": "CarePlan/cf-1502030147369"
          }
        ],
        "status": "completed",
        "intent": "order",
        "priority": "asap",
        "category": [
          {
            "coding": [
              {
                "system": "http://snomed.info/sct",
                "code": "409073007",
                "display": "Education"
              }
            ],
            "text": "Education"
          }
        ],
        "code": {
          "coding": [
            {
              "system": "http://snomed.info/sct",
              "code": "385805005",
              "display": "Diabetic care education"
            }
          ],
          "text": "Diabetic care education"
        },
        "subject": {
          "reference": "Patient/cf-1502030067739"
        },
        "occurrenceDateTime": "2017-06-20",
        "requester": {
          "agent": {
            "reference": "Practitioner/cf-1502030092557"
          }
        },
        "performerType": {
          "coding": [
            {
              "system": "http://snomed.info/sct",
              "code": "309350005",
              "display": "Diabetologist"
            }
          ],
          "text": "Diabetologist"
        },
        "reasonCode": [
          {
            "coding": [
              {
                "system": "http://snomed.info/sct",
                "code": "44054006",
                "display": "Diabetes mellitus type 2"
              }
            ],
            "text": "Diabetes mellitus type 2"
          }
        ]
      },
      "search": {
        "mode": "include"
      }
    },
    {
      "fullUrl": "http://fhirtest.uhn.ca/baseDstu3/ProcedureRequest/cf-1502032632253",
      "resource": {
        "resourceType": "ProcedureRequest",
        "id": "cf-1502032632253",
        "meta": {
          "versionId": "1",
          "lastUpdated": "2017-08-07T19:31:19.094-04:00"
        },
        "text": {
          "status": "generated",
          "div": "<div xmlns=\"http://www.w3.org/1999/xhtml\">Regular quality of life questionnaires</div>"
        },
        "basedOn": [
          {
            "reference": "CarePlan/cf-1502030236934"
          }
        ],
        "status": "active",
        "intent": "plan",
        "priority": "routine",
        "category": [
          {
            "coding": [
              {
                "system": "http://snomed.info/sct",
                "code": "103693007",
                "display": "Diagnostic procedure"
              }
            ],
            "text": "Diagnostic procedure"
          }
        ],
        "code": {
          "coding": [
            {
              "system": "http://snomed.info/sct",
              "code": "273446001",
              "display": "EORTC - Quality of life questionnaire"
            }
          ],
          "text": "EORTC - Quality of life questionnaire"
        },
        "subject": {
          "reference": "Patient/cf-1502030067739"
        },
        "occurrenceTiming": {
          "repeat": {
            "boundsPeriod": {
              "start": "2014-03-12"
            },
            "frequency": 2,
            "period": 1,
            "periodUnit": "a"
          },
          "code": {
            "coding": [
              {
                "system": "http://snomed.info/sct",
                "code": "307456009",
                "display": "Twice per year"
              }
            ],
            "text": "Twice per year"
          }
        },
        "requester": {
          "agent": {
            "reference": "Practitioner/cf-1502030117433"
          }
        },
        "performerType": {
          "coding": [
            {
              "system": "http://snomed.info/sct",
              "code": "224577009",
              "display": "Healthcare assistant"
            }
          ],
          "text": "Healthcare assistant"
        },
        "reasonCode": [
          {
            "coding": [
              {
                "system": "http://snomed.info/sct",
                "code": "84114007",
                "display": "Cardiac insufficiency"
              }
            ],
            "text": "Cardiac insufficiency"
          }
        ]
      },
      "search": {
        "mode": "include"
      }
    },
    {
      "fullUrl": "http://fhirtest.uhn.ca/baseDstu3/ProcedureRequest/cf-1502032819860",
      "resource": {
        "resourceType": "ProcedureRequest",
        "id": "cf-1502032819860",
        "meta": {
          "versionId": "1",
          "lastUpdated": "2017-08-07T19:31:19.094-04:00"
        },
        "text": {
          "status": "generated",
          "div": "<div xmlns=\"http://www.w3.org/1999/xhtml\">Smoking cessation assistance</div>"
        },
        "basedOn": [
          {
            "reference": "CarePlan/cf-1502030147369"
          }
        ],
        "status": "draft",
        "intent": "plan",
        "priority": "routine",
        "code": {
          "coding": [
            {
              "system": "http://snomed.info/sct",
              "code": "384742004",
              "display": "Smoking cessation assistance"
            }
          ],
          "text": "Smoking cessation assistance"
        },
        "subject": {
          "reference": "Patient/cf-1502030067739"
        },
        "occurrencePeriod": {
          "start": "2017-07-30",
          "end": "2017-10-30"
        },
        "requester": {
          "agent": {
            "reference": "Practitioner/cf-1502030092557"
          }
        },
        "performerType": {
          "coding": [
            {
              "system": "http://snomed.info/sct",
              "code": "224583007",
              "display": "Behaviour therapist"
            }
          ],
          "text": "Behaviour therapist"
        },
        "reasonCode": [
          {
            "coding": [
              {
                "system": "http://snomed.info/sct",
                "code": "44054006",
                "display": "Diabetes mellitus type 2"
              }
            ],
            "text": "Diabetes mellitus type 2"
          }
        ]
      },
      "search": {
        "mode": "include"
      }
    },
    {
      "fullUrl": "http://fhirtest.uhn.ca/baseDstu3/ProcedureRequest/cf-1502032785216",
      "resource": {
        "resourceType": "ProcedureRequest",
        "id": "cf-1502032785216",
        "meta": {
          "versionId": "1",
          "lastUpdated": "2017-08-07T19:31:19.094-04:00"
        },
        "text": {
          "status": "generated",
          "div": "<div xmlns=\"http://www.w3.org/1999/xhtml\">Smoking cessation assistance</div>"
        },
        "basedOn": [
          {
            "reference": "CarePlan/cf-1502030215339"
          }
        ],
        "status": "completed",
        "intent": "plan",
        "priority": "routine",
        "code": {
          "coding": [
            {
              "system": "http://snomed.info/sct",
              "code": "384742004",
              "display": "Smoking cessation assistance"
            }
          ],
          "text": "Smoking cessation assistance"
        },
        "subject": {
          "reference": "Patient/cf-1502030067739"
        },
        "occurrencePeriod": {
          "start": "2016-11-12",
          "end": "2017-02-12"
        },
        "requester": {
          "agent": {
            "reference": "Practitioner/cf-1502030117433"
          }
        },
        "performerType": {
          "coding": [
            {
              "system": "http://snomed.info/sct",
              "code": "224583007",
              "display": "Behaviour therapist"
            }
          ],
          "text": "Behaviour therapist"
        },
        "reasonCode": [
          {
            "coding": [
              {
                "system": "http://snomed.info/sct",
                "code": "84114007",
                "display": "Cardiac insufficiency"
              }
            ],
            "text": "Cardiac insufficiency"
          }
        ]
      },
      "search": {
        "mode": "include"
      }
    },
    {
      "fullUrl": "http://fhirtest.uhn.ca/baseDstu3/ProcedureRequest/cf-1502032767301",
      "resource": {
        "resourceType": "ProcedureRequest",
        "id": "cf-1502032767301",
        "meta": {
          "versionId": "1",
          "lastUpdated": "2017-08-07T19:31:19.094-04:00"
        },
        "text": {
          "status": "generated",
          "div": "<div xmlns=\"http://www.w3.org/1999/xhtml\">Active Physical Exercise</div>"
        },
        "basedOn": [
          {
            "reference": "CarePlan/cf-1502030147369"
          }
        ],
        "status": "active",
        "intent": "proposal",
        "priority": "routine",
        "code": {
          "coding": [
            {
              "system": "http://snomed.info/sct",
              "code": "86047003",
              "display": "Active physical exercise"
            }
          ],
          "text": "Active physical exercise"
        },
        "subject": {
          "reference": "Patient/cf-1502030067739"
        },
        "occurrenceTiming": {
          "repeat": {
            "boundsPeriod": {
              "start": "2017-06-10"
            },
            "duration": 30,
            "durationUnit": "min",
            "frequency": 3,
            "period": 1,
            "periodUnit": "wk"
          },
          "code": {
            "coding": [
              {
                "system": "http://snomed.info/sct",
                "code": "396113003",
                "display": "3-4x /wk"
              }
            ],
            "text": "Three to four times a week"
          }
        },
        "requester": {
          "agent": {
            "reference": "Practitioner/cf-1502030092557"
          }
        },
        "performerType": {
          "coding": [
            {
              "system": "http://snomed.info/sct",
              "code": "116154003",
              "display": "Patient"
            }
          ],
          "text": "Patient"
        },
        "performer": {
          "reference": "Patient/cf-1502030067739"
        },
        "reasonCode": [
          {
            "coding": [
              {
                "system": "http://snomed.info/sct",
                "code": "44054006",
                "display": "Diabetes mellitus type 2"
              }
            ],
            "text": "Diabetes mellitus type 2"
          }
        ]
      },
      "search": {
        "mode": "include"
      }
    },
    {
      "fullUrl": "http://fhirtest.uhn.ca/baseDstu3/ProcedureRequest/cf-1502032753214",
      "resource": {
        "resourceType": "ProcedureRequest",
        "id": "cf-1502032753214",
        "meta": {
          "versionId": "1",
          "lastUpdated": "2017-08-07T19:31:19.094-04:00"
        },
        "text": {
          "status": "generated",
          "div": "<div xmlns=\"http://www.w3.org/1999/xhtml\">6-minute walk test</div>"
        },
        "basedOn": [
          {
            "reference": "CarePlan/cf-1502030147369"
          }
        ],
        "status": "completed",
        "intent": "instance-order",
        "priority": "asap",
        "category": [
          {
            "coding": [
              {
                "system": "http://snomed.info/sct",
                "code": "103693007",
                "display": "Diagnostic procedure"
              }
            ],
            "text": "Diagnostic procedure"
          }
        ],
        "code": {
          "coding": [
            {
              "system": "http://snomed.info/sct",
              "code": "252478000",
              "display": "6-minute walk test"
            }
          ],
          "text": "6-minute walk test"
        },
        "subject": {
          "reference": "Patient/cf-1502030067739"
        },
        "occurrenceDateTime": "2016-10-15",
        "requester": {
          "agent": {
            "reference": "Practitioner/cf-1502030117433"
          }
        },
        "reasonCode": [
          {
            "coding": [
              {
                "system": "http://snomed.info/sct",
                "code": "84114007",
                "display": "Cardiac insufficiency"
              }
            ],
            "text": "Cardiac insufficiency"
          }
        ]
      },
      "search": {
        "mode": "include"
      }
    },
    {
      "fullUrl": "http://fhirtest.uhn.ca/baseDstu3/Task/cf-1502030040059",
      "resource": {
        "resourceType": "Task",
        "id": "cf-1502030040059",
        "meta": {
          "versionId": "1",
          "lastUpdated": "2017-08-07T19:31:19.094-04:00"
        },
        "text": {
          "status": "generated",
          "div": "<div xmlns=\"http://www.w3.org/1999/xhtml\">Smoking Ban</div>"
        },
        "basedOn": [
          {
            "reference": "CarePlan/cf-1502030215339"
          }
        ],
        "status": "accepted",
        "intent": "order",
        "priority": "urgent",
        "description": "Smoking Ban",
        "executionPeriod": {
          "start": "2016-10-12"
        },
        "requester": {
          "agent": {
            "reference": "Practitioner/cf-1502030117433"
          }
        },
        "owner": {
          "reference": "Patient/cf-1502030067739"
        },
        "reason": {
          "coding": [
            {
              "system": "http://snomed.info/sct",
              "code": "84114007",
              "display": "Cardiac insufficiency"
            }
          ],
          "text": "Cardiac insufficiency"
        }
      },
      "search": {
        "mode": "include"
      }
    }
  ]
}